# Step     T (K)     E_KS (eV)    E_tot (eV)   Vol (A^3)    P (kBar)
     1  13628.00    -898.21873    -892.93407    1000.001       7.274
     2  13792.33    -898.30266    -892.95427    1000.001       7.254
     3  14079.93    -898.42973    -892.96982    1000.001       6.449
     4  13890.80    -898.34199    -892.95541    1000.001       5.856
     5  13571.25    -898.20781    -892.94515    1000.001       5.453
     6  13513.37    -898.18330    -892.94309    1000.001       5.308
     7  13791.52    -898.29713    -892.94905    1000.001       5.568
     8  14160.17    -898.45454    -892.96351    1000.001       6.309
     9  14153.44    -898.45763    -892.96921    1000.001       7.457
    10  13810.88    -898.29386    -892.93828    1000.001       8.233
    11  13876.18    -898.33994    -892.95904    1000.001       7.716
    12  13890.80    -898.36845    -892.98188    1000.001       6.852
    13  13092.25    -898.04827    -892.97136    1000.001       6.644
    14  11720.91    -897.50514    -892.96001    1000.001       7.123
    15  10210.47    -896.91462    -892.95520    1000.001       8.003
    16   8943.85    -896.42130    -892.95305    1000.001       8.705
    17   8533.62    -896.28209    -892.97292    1000.001       8.638
    18   9490.79    -896.67372    -892.99338    1000.001       7.958
    19  11297.63    -897.42307    -893.04207    1000.001       6.709
    20  12595.76    -897.95174    -893.06736    1000.001       5.601
    21  12588.93    -897.93784    -893.05610    1000.001       4.860
    22  11557.85    -897.50865    -893.02674    1000.001       4.137
    23  10630.22    -897.12972    -893.00754    1000.001       3.577
    24  10297.39    -897.02813    -893.03500    1000.001       2.313
    25  10411.36    -897.07017    -893.03285    1000.001       1.188
    26  11168.43    -897.36063    -893.02974    1000.001       0.396
    27  12730.68    -897.96739    -893.03069    1000.001       0.156
    28  14998.14    -898.86812    -893.05214    1000.001       0.942
    29  16948.14    -899.71560    -893.14345    1000.001       3.681
    30  16155.19    -899.40686    -893.14220    1000.001       9.083
    31  14792.24    -898.64525    -892.90911    1000.001      11.702
    32  15523.48    -899.16413    -893.14443    1000.001       7.879
    33  14493.07    -898.66991    -893.04978    1000.001       5.668
    34  12585.69    -897.89501    -893.01453    1000.001       3.621
    35  11128.20    -897.33991    -893.02461    1000.001       1.029
    36   9930.56    -896.88597    -893.03510    1000.001      -1.531
    37   8656.67    -896.38878    -893.03190    1000.001      -3.618
    38   7380.25    -895.88592    -893.02401    1000.001      -5.195
    39   6365.42    -895.48424    -893.01586    1000.001      -6.326
    40   5817.18    -895.26146    -893.00568    1000.001      -6.897
    41   5805.85    -895.24995    -892.99856    1000.001      -7.034
    42   6271.01    -895.42771    -892.99594    1000.001      -6.658
    43   7044.70    -895.72908    -892.99729    1000.001      -5.761
    44   7914.64    -896.06473    -892.99559    1000.001      -4.359
    45   8872.27    -896.42024    -892.97975    1000.001      -2.869
    46  10280.88    -896.95807    -892.97135    1000.001      -1.932
    47  12241.00    -897.74456    -892.99775    1000.001      -1.318
    48  13746.40    -898.39934    -893.06876    1000.001       0.399
    49  12621.00    -897.99384    -893.09967    1000.001       4.557
    50  10715.45    -896.93941    -892.78417    1000.001       6.957
    51  12016.03    -897.76460    -893.10503    1000.001       1.683
    52  11916.22    -897.64791    -893.02704    1000.001      -1.678
    53  10198.38    -896.92299    -892.96826    1000.001      -3.111
    54   8821.06    -896.38764    -892.96701    1000.001      -3.871
    55   8103.16    -896.11534    -892.97310    1000.001      -3.699
    56   7696.99    -895.95874    -892.97400    1000.001      -2.834
    57   7456.75    -895.84995    -892.95837    1000.001      -1.974
    58   7667.28    -895.92526    -892.95204    1000.001      -1.985
    59   8425.10    -896.22677    -892.95968    1000.001      -2.686
    60   9499.86    -896.63407    -892.95021    1000.001      -2.743
    61  10229.30    -897.00069    -893.03397    1000.001      -0.524
    62   7502.66    -896.05787    -893.14848    1000.001       5.808
    63   5340.57    -894.61905    -892.54808    1000.001       9.622
    64  11111.15    -897.38273    -893.07404    1000.001       1.500
    65  12745.21    -897.83164    -892.88930    1000.001       0.138
    66  11769.15    -897.40001    -892.83617    1000.001      -0.119
    67  10650.12    -896.96279    -892.83289    1000.001      -0.600
    68   9851.77    -896.65390    -892.83358    1000.001      -0.817
    69   9347.62    -896.45482    -892.83000    1000.001      -0.261
    70   8841.84    -896.28820    -892.85951    1000.001       1.790
    71   7686.06    -895.82207    -892.84157    1000.001       5.283
    72   7678.12    -895.70441    -892.72699    1000.001       7.300
    73  10910.68    -897.11320    -892.88226    1000.001       5.749
    74  13653.40    -898.21026    -892.91574    1000.001       5.801
    75  14230.17    -898.33997    -892.82180    1000.001       7.041
    76  14043.94    -898.31760    -892.87164    1000.001       6.567
    77  12868.64    -897.88212    -892.89192    1000.001       5.878
    78  10814.70    -897.02288    -892.82916    1000.001       5.225
    79   9466.44    -896.51626    -892.84536    1000.001       2.784
    80   8603.39    -896.20341    -892.86719    1000.001      -0.269
    81   7383.40    -895.71308    -892.84995    1000.001      -2.547
    82   6069.37    -895.18779    -892.83421    1000.001      -4.149
    83   5146.54    -894.82185    -892.82612    1000.001      -5.231
    84   4895.74    -894.72036    -892.82188    1000.001      -5.796
    85   5458.14    -894.93628    -892.81972    1000.001      -5.815
    86   6872.17    -895.48753    -892.82264    1000.001      -5.115
    87   8942.65    -896.30921    -892.84143    1000.001      -3.359
    88  10891.70    -897.11094    -892.88736    1000.001       0.017
    89  11403.77    -897.32267    -892.90051    1000.001       5.138
    90  10967.95    -897.05493    -892.80178    1000.001       9.139
    91  11848.29    -897.43617    -892.84164    1000.001       7.822
    92  12758.62    -897.86328    -892.91574    1000.001       3.493
    93  11745.81    -897.43731    -892.88252    1000.001      -0.114
    94   9498.44    -896.52332    -892.84002    1000.001      -2.640
    95   7397.65    -895.69024    -892.82158    1000.001      -4.405
    96   6113.38    -895.18711    -892.81646    1000.001      -5.419
    97   5782.65    -895.06139    -892.81900    1000.001      -5.641
    98   6215.61    -895.24371    -892.83342    1000.001      -4.916
    99   6791.33    -895.49943    -892.86589    1000.001      -2.959
   100   6600.84    -895.42611    -892.86644    1000.001       0.168
   101   6474.06    -895.28663    -892.77612    1000.001       2.189
   102   8329.14    -896.09290    -892.86303    1000.001       0.483
   103  10255.28    -896.85309    -892.87630    1000.001      -1.462
   104  10897.40    -897.07011    -892.84432    1000.001      -2.086
   105  10933.98    -897.06929    -892.82931    1000.001      -1.996
   106  10904.16    -897.05218    -892.82377    1000.001      -1.344
   107  11007.95    -897.08376    -892.81510    1000.001      -0.422
   108  11359.14    -897.22254    -892.81769    1000.001       0.185
   109  11739.74    -897.39699    -892.84456    1000.001       0.651
   110  11338.63    -897.27543    -892.87853    1000.001       1.962
   111   9410.86    -896.49871    -892.84937    1000.001       4.304
   112   7707.73    -895.74725    -892.75834    1000.001       4.708
   113   8022.50    -895.97677    -892.86581    1000.001       1.348
   114   8038.89    -895.97129    -892.85398    1000.001      -1.455
   115   7194.75    -895.61186    -892.82188    1000.001      -3.028
   116   6467.25    -895.31788    -892.81001    1000.001      -3.981
   117   6368.81    -895.27862    -892.80892    1000.001      -4.290
   118   6973.33    -895.51785    -892.81373    1000.001      -3.845
   119   8096.26    -895.96397    -892.82440    1000.001      -2.523
   120   9331.83    -896.45609    -892.83740    1000.001      -0.226
   121  10222.48    -896.80121    -892.83714    1000.001       2.809
   122  10671.86    -896.96503    -892.82670    1000.001       5.564
   123  10975.40    -897.07218    -892.81614    1000.001       6.540
   124  11347.44    -897.23813    -892.83782    1000.001       4.861
   125  11178.27    -897.19562    -892.86091    1000.001       1.856
   126   9986.41    -896.71036    -892.83783    1000.001      -0.684
   127   8416.17    -896.08109    -892.81747    1000.001      -2.559
   128   7215.08    -895.60720    -892.80933    1000.001      -3.838
   129   6721.07    -895.41468    -892.80838    1000.001      -4.483
   130   6972.69    -895.51648    -892.81261    1000.001      -4.433
   131   7785.69    -895.84282    -892.82369    1000.001      -3.578
   132   8720.35    -896.22277    -892.84120    1000.001      -1.794
   133   9198.32    -896.41300    -892.84607    1000.001       0.761
   134   9177.38    -896.37677    -892.81797    1000.001       3.037
   135   9420.18    -896.46702    -892.81406    1000.001       3.534
   136  10097.78    -896.75180    -892.83608    1000.001       2.433
   137  10528.12    -896.92979    -892.84720    1000.001       0.855
   138  10295.62    -896.83504    -892.84260    1000.001      -0.684
   139   9545.26    -896.53207    -892.83060    1000.001      -1.999
   140   8693.56    -896.19162    -892.82043    1000.001      -2.934
   141   8092.08    -895.95506    -892.81711    1000.001      -3.305
   142   7832.14    -895.86027    -892.82312    1000.001      -2.939
   143   7677.39    -895.81234    -892.83521    1000.001      -1.715
   144   7323.10    -895.66670    -892.82695    1000.001       0.097
   145   7225.05    -895.59725    -892.79552    1000.001       1.203
   146   8144.38    -895.98175    -892.82353    1000.001       0.515
   147   9417.77    -896.49605    -892.84402    1000.001      -0.614
   148  10253.25    -896.81388    -892.83787    1000.001      -0.975
   149  10694.85    -896.97989    -892.83264    1000.001      -0.583
   150  10934.51    -897.06445    -892.82427    1000.001       0.238
   151  11153.64    -897.14305    -892.81790    1000.001       0.921
   152  11386.84    -897.24778    -892.83220    1000.001       1.197
   153  11246.69    -897.21411    -892.85287    1000.001       1.606
   154  10186.15    -896.80542    -892.85543    1000.001       2.639
   155   8537.27    -896.11589    -892.80530    1000.001       3.404
   156   7752.97    -895.82013    -892.81369    1000.001       2.035
   157   7706.37    -895.83274    -892.84437    1000.001      -0.503
   158   7354.43    -895.68250    -892.83059    1000.001      -2.404
   159   6861.87    -895.47661    -892.81571    1000.001      -3.618
   160   6750.52    -895.42744    -892.80972    1000.001      -4.271
   161   7288.29    -895.63605    -892.80980    1000.001      -4.308
   162   8488.18    -896.10786    -892.81632    1000.001      -3.591
   163  10082.78    -896.74383    -892.83393    1000.001      -1.893
   164  11397.37    -897.28047    -892.86080    1000.001       1.020
   165  11706.14    -897.38704    -892.84764    1000.001       4.674
   166  11692.64    -897.33330    -892.79913    1000.001       6.622
   167  12372.80    -897.64348    -892.84555    1000.001       5.090
   168  12654.60    -897.76183    -892.85463    1000.001       2.458
   169  11976.94    -897.47995    -892.83554    1000.001       0.296
   170  10910.05    -897.05821    -892.82751    1000.001      -1.343
   171   9959.09    -896.68820    -892.82627    1000.001      -2.477
   172   9405.10    -896.47255    -892.82544    1000.001      -3.079
   173   9357.19    -896.45801    -892.82948    1000.001      -2.983
   174   9655.90    -896.59012    -892.84575    1000.001      -2.000
   175   9818.06    -896.66989    -892.86264    1000.001      -0.136
   176   9614.15    -896.56757    -892.83940    1000.001       1.926
   177   9878.42    -896.65965    -892.82900    1000.001       2.391
   178  10828.32    -897.06944    -892.87044    1000.001       1.041
   179  11331.45    -897.26498    -892.87087    1000.001      -0.319
   180  11086.81    -897.15515    -892.85590    1000.001      -1.230
   181  10528.40    -896.92892    -892.84621    1000.001      -1.871
   182  10011.77    -896.72376    -892.84139    1000.001      -2.247
   183   9696.70    -896.60024    -892.84006    1000.001      -2.285
   184   9579.66    -896.55930    -892.84450    1000.001      -1.810
   185   9441.36    -896.51760    -892.85643    1000.001      -0.631
   186   8906.78    -896.30901    -892.85513    1000.001       1.226
   187   8174.00    -895.98097    -892.81126    1000.001       2.753
   188   8340.86    -896.05449    -892.82007    1000.001       2.137
   189   9217.46    -896.43559    -892.86124    1000.001       0.088
   190   9702.93    -896.62321    -892.86061    1000.001      -1.589
   191   9792.45    -896.65138    -892.85406    1000.001      -2.719
   192   9918.67    -896.70041    -892.85414    1000.001      -3.377
   193  10303.30    -896.85375    -892.85833    1000.001      -3.518
   194  10951.66    -897.11174    -892.86490    1000.001      -3.190
   195  11701.64    -897.41378    -892.87611    1000.001      -2.226
   196  12186.93    -897.61699    -892.89115    1000.001      -0.527
   197  12010.84    -897.54182    -892.88426    1000.001       1.742
   198  11649.62    -897.35144    -892.83396    1000.001       3.336
   199  12358.91    -897.63763    -892.84510    1000.001       3.090
   200  13450.90    -898.13271    -892.91671    1000.001       3.049
